File: v44/tables/Messung2.UXD
; C:\DIFFDAT1\Praktikum\Teasdale Wagner\Messung2.raw(Diffrac Plus V1.01 file) converted by XCH V1.0
_FILEVERSION=2
_SITE='Deutschland'
_USER='Administrator'
_GONIOMETER_CODE=4885
; D8 Theta/Theta; Special
_SAMPLE_CHANGER_CODE=0
_ATTACHMENTS_CODE=0
_GONIOMETER_RADIUS=350
_FIXED_DIVSLIT=0.600000
_FIXED_SAMPLESLIT=0.000000
_FIXED_DETSLIT=11.66
_MONOCHROMATOR=0
; None
_THIN_FILM='N'
_BETA_FILTER='Y'
_FIXED_ANTISLIT=8.340000
_ANALYZER_CODE=0
; None
_DATEMEASURED='15-May-2023 12:25:06'
_WL_UNIT='A'
_WL1=1.540600
_WL2=1.544390
_WL3=1.392220
_WLRATIO=0.500000
_ANODE='Cu'
; (Data for Range number 1)
_DRIVE='THETA'
_STEPTIME=5.000660
_STEPSIZE=0.005000
_STEPMODE='C'
_START=0.000000
_THETA=0.000000
_2THETA=0.100000
_KHI=0.000000
_PHI=92.46
_X=3.061000
_Y=-0.575000
_Z=0.385000
_DIVERGENCE=0.000000
_ANTISCATTER=0.000000
_DETECTOR=5
_DETECTORSLIT='unkn'
_AUX1=0.000000
_AUX2=0.000000
_AUX3=0.000000
_TIMESTARTED=2.000000
_TEMP_RATE=-1.000000
_TEMP_DELAY=-1.000000
_KV=40
_MA=35
_RANGE_WL=1.540600
_3DPLANE=0
_GONIOMETER=0.097500
_PSDCHANNEL0=0
_2THETACOUNTS
   0.0000    306501
   0.0050    241383
   0.0100    176574
   0.0150    141668
   0.0200    109363
   0.0250    100690
   0.0300     92707
   0.0350     81696
   0.0400     72868
   0.0450     60026
   0.0500     50823
   0.0550     45384
   0.0600     43609
   0.0650     44909
   0.0700     45187
   0.0750     47580
   0.0800     50254
   0.0850     52168
   0.0900     52593
   0.0950     51198
   0.1000     50550
   0.1050     49649
   0.1100     46879
   0.1150     41494
   0.1200     36524
   0.1250     33401
   0.1300     31243
   0.1350     27569
   0.1400     23480
   0.1450     19802
   0.1500     17141
   0.1550     15615
   0.1600     14497
   0.1650     13457
   0.1700     12825
   0.1750     11674
   0.1800     10865
   0.1850     10029
   0.1900      9119
   0.1950      8390
   0.2000      7759
   0.2050      7248
   0.2100      6586
   0.2150      5939
   0.2200      5391
   0.2250      4447
   0.2300      3723
   0.2350      3110
   0.2400      2449
   0.2450      2000
   0.2500      1684
   0.2550      1370
   0.2600      1230
   0.2650      1036
   0.2700       887
   0.2750       776
   0.2800       778
   0.2850       663
   0.2900       620
   0.2950       590
   0.3000       542
   0.3050       552
   0.3100       470
   0.3150       467
   0.3200       424
   0.3250       346
   0.3300       342
   0.3350       305
   0.3400       300
   0.3450       255
   0.3500       228
   0.3550       221
   0.3600       184
   0.3650       171
   0.3700       171
   0.3750       139
   0.3800       109
   0.3850       126
   0.3900       114
   0.3950       112
   0.4000       106
   0.4050       125
   0.4100        92
   0.4150        91
   0.4200       100
   0.4250        71
   0.4300        62
   0.4350        69
   0.4400        83
   0.4450        73
   0.4500        54
   0.4550        72
   0.4600        59
   0.4650        62
   0.4700        56
   0.4750        45
   0.4800        61
   0.4850        54
   0.4900        61
   0.4950        53
   0.5000        49
   0.5050        50
   0.5100        56
   0.5150        49
   0.5200        42
   0.5250        39
   0.5300        32
   0.5350        37
   0.5400        34
   0.5450        39
   0.5500        34
   0.5550        38
   0.5600        22
   0.5650        36
   0.5700        37
   0.5750        31
   0.5800        18
   0.5850        25
   0.5900        25
   0.5950        23
   0.6000        24
   0.6050        23
   0.6100        24
   0.6150        21
   0.6200        29
   0.6250        21
   0.6300        19
   0.6350        27
   0.6400        19
   0.6450        25
   0.6500        19
   0.6550        16
   0.6600        20
   0.6650        20
   0.6700        17
   0.6750        23
   0.6800        16
   0.6850        16
   0.6900        30
   0.6950        24
   0.7000        27
   0.7050        20
   0.7100        21
   0.7150        26
   0.7200        26
   0.7250        18
   0.7300        14
   0.7350        22
   0.7400        10
   0.7450        17
   0.7500        20
   0.7550        18
   0.7600        16
   0.7650        11
   0.7700        12
   0.7750         8
   0.7800        14
   0.7850        12
   0.7900         8
   0.7950        12
   0.8000        10
   0.8050         4
   0.8100        14
   0.8150        14
   0.8200         9
   0.8250         8
   0.8300         3
   0.8350         7
   0.8400         8
   0.8450        10
   0.8500         5
   0.8550         6
   0.8600         6
   0.8650         6
   0.8700         7
   0.8750         9
   0.8800         6
   0.8850         7
   0.8900         9
   0.8950         4
   0.9000         6
   0.9050         2
   0.9100        13
   0.9150         6
   0.9200         3
   0.9250         8
   0.9300         5
   0.9350         9
   0.9400         6
   0.9450         8
   0.9500         9
   0.9550         3
   0.9600         9
   0.9650         8
   0.9700         6
   0.9750         7
   0.9800         6
   0.9850         3
   0.9900         8
   0.9950         4
   1.0000         3
   1.0050         5
   1.0100         4
   1.0150         4
   1.0200         2
   1.0250         6
   1.0300         3
   1.0350         5
   1.0400         6
   1.0450         3
   1.0500         4
   1.0550         4
   1.0600         4
   1.0650         5
   1.0700         3
   1.0750         4
   1.0800         4
   1.0850         4
   1.0900         4
   1.0950         3
   1.1000         2
   1.1050         0
   1.1100         5
   1.1150         3
   1.1200         4
   1.1250         2
   1.1300         3
   1.1350         1
   1.1400         5
   1.1450         2
   1.1500         2
   1.1550         1
   1.1600         0
   1.1650         2
   1.1700         4
   1.1750         4
   1.1800         2
   1.1850         8
   1.1900         2
   1.1950         3
   1.2000         4
   1.2050         3
   1.2100         0
   1.2150         0
   1.2200         2
   1.2250         5
   1.2300         1
   1.2350         2
   1.2400         6
   1.2450         2
   1.2500         4
   1.2550         3
   1.2600         0
   1.2650         1
   1.2700         1
   1.2750         2
   1.2800         1
   1.2850         0
   1.2900         5
   1.2950         2
   1.3000         2
   1.3050         1
   1.3100         1
   1.3150         4
   1.3200         1
   1.3250         3
   1.3300         2
   1.3350         2
   1.3400         2
   1.3450         3
   1.3500         4
   1.3550         3
   1.3600         1
   1.3650         4
   1.3700         2
   1.3750         0
   1.3800         0
   1.3850         2
   1.3900         0
   1.3950         1
   1.4000         0
   1.4050         3
   1.4100         1
   1.4150         1
   1.4200         2
   1.4250         1
   1.4300         1
   1.4350         3
   1.4400         1
   1.4450         1
   1.4500         5
   1.4550         0
   1.4600         0
   1.4650         2
   1.4700         3
   1.4750         1
   1.4800         0
   1.4850         2
   1.4900         1
   1.4950         1
   1.5000         1
   1.5050         3
   1.5100         2
   1.5150         0
   1.5200         1
   1.5250         1
   1.5300         0
   1.5350         1
   1.5400         1
   1.5450         0
   1.5500         0
   1.5550         0
   1.5600         1
   1.5650         1
   1.5700         1
   1.5750         0
   1.5800         1
   1.5850         0
   1.5900         1
   1.5950         1
   1.6000         1
   1.6050         2
   1.6100         0
   1.6150         0
   1.6200         2
   1.6250         2
   1.6300         0
   1.6350         0
   1.6400         2
   1.6450         0
   1.6500         0
   1.6550         0
   1.6600         1
   1.6650         0
   1.6700         1
   1.6750         1
   1.6800         2
   1.6850         0
   1.6900         1
   1.6950         1
   1.7000         0
   1.7050         0
   1.7100         0
   1.7150         1
   1.7200         0
   1.7250         0
   1.7300         0
   1.7350         0
   1.7400         0
   1.7450         0
   1.7500         0
   1.7550         0
   1.7600         0
   1.7650         2
   1.7700         0
   1.7750         0
   1.7800         0
   1.7850         0
   1.7900         1
   1.7950         0
   1.8000         0
   1.8050         1
   1.8100         0
   1.8150         1
   1.8200         0
   1.8250         0
   1.8300         0
   1.8350         0
   1.8400         0
   1.8450         0
   1.8500         0
   1.8550         0
   1.8600         0
   1.8650         0
   1.8700         0
   1.8750         2
   1.8800         0
   1.8850         0
   1.8900         0
   1.8950         0
   1.9000         0
   1.9050         0
   1.9100         0
   1.9150         0
   1.9200         0
   1.9250         2
   1.9300         1
   1.9350         1
   1.9400         0
   1.9450         1
   1.9500         1
   1.9550         0
   1.9600         0
   1.9650         0
   1.9700         0
   1.9750         0
   1.9800         0
   1.9850         1
   1.9900         0
   1.9950         0
   2.0000         0
   2.0050         0
   2.0100         0
   2.0150         0
   2.0200         0
   2.0250         0
   2.0300         0
   2.0350         0
   2.0400         0
   2.0450         1
   2.0500         0
   2.0550         0
   2.0600         0
   2.0650         0
   2.0700         0
   2.0750         0
   2.0800         0
   2.0850         0
   2.0900         0
   2.0950         1
   2.1000         0
   2.1050         0
   2.1100         0
   2.1150         0
   2.1200         1
   2.1250         0
   2.1300         0
   2.1350         0
   2.1400         0
   2.1450         0
   2.1500         0
   2.1550         0
   2.1600         1
   2.1650         1
   2.1700         0
   2.1750         0
   2.1800         0
   2.1850         0
   2.1900         0
   2.1950         1
   2.2000         0
   2.2050         0
   2.2100         0
   2.2150         2
   2.2200         0
   2.2250         0
   2.2300         0
   2.2350         0
   2.2400         0
   2.2450         0
   2.2500         0
   2.2550         1
   2.2600         1
   2.2650         0
   2.2700         0
   2.2750         0
   2.2800         0
   2.2850         0
   2.2900         0
   2.2950         0
   2.3000         2
   2.3050         0
   2.3100         0
   2.3150         1
   2.3200         0
   2.3250         0
   2.3300         1
   2.3350         1
   2.3400         1
   2.3450         0
   2.3500         0
   2.3550         0
   2.3600         0
   2.3650         0
   2.3700         0
   2.3750         0
   2.3800         1
   2.3850         0
   2.3900         0
   2.3950         0
   2.4000         0
   2.4050         0
   2.4100         0
   2.4150         0
   2.4200         0
   2.4250         0
   2.4300         0
   2.4350         0
   2.4400         0
   2.4450         0
   2.4500         0
   2.4550         1
   2.4600         0
   2.4650         0
   2.4700         0
   2.4750         1
   2.4800         0
   2.4850         0
   2.4900         0
   2.4950         0
   2.5000         0